Wavelength (nm), Intensity (J/m2/s/nm)
150,35.896
155,129.182
160,233.774
165,362.516
170,1621.435
175,14948.857
180,22297.642
185,15209.252
190,28580.16
195,33392.665
200,35515.634
205,42744.276
210,55026.547
215,68531.98
220,74876.707
225,63846.929
230,66549.032
235,44430.048
240,32561.076
245,70548.288
250,62279.274
255,43202.772
260,53841.566
265,117107.626
270,95321.99
275,59662.451
280,25546.807
285,85920.977
290,124092.959
295,129301.907
300,141984.533
305,146671.722
310,150908.884
315,149336.952
320,142615.15
325,147673.443
330,159375.576
335,155969.651
340,153171.226
345,155798.271
350,159400.694
355,166636.931
360,151050.646
365,164162.123
370,160986.955
375,170424.106
380,217796.749
385,235104.458
390,221665.151
395,223989.903
400,269291.819
405,272628.319
410,231111.592
415,279201.159
420,274280.656
425,269390.336
430,246701.154
435,213684.864
440,260286.417
445,259381.756
450,266572.381
455,258666.488
460,258314.225
465,256915.894
470,246239.53
475,252894.63
480,246937.773
485,209678.22
490,231670.622
495,234659.398
500,221654.676
505,224821.437
510,224331.643
515,214778.834
520,208496.754
525,212718.024
530,210947.414
535,205887.045
540,201207.605
545,202511.585
550,198638.059
555,197190.615
560,191821.745
565,190977.458
570,187297.573
575,186274.83
580,183751.559
585,180946.889
590,176088.841
595,175811.453
600,171931.464
605,170279.215
610,166485.107
615,160748.163
620,161883.997
625,155689.388
630,156142.992
635,152933.728
640,150632.388
645,147391.474
650,144446.724
655,128390.781
660,138629.422
665,139715.346
670,138101.042
675,135378.6
680,133694.706
685,131181.476
690,129722.757
695,127655.111
700,124867.213
705,123654.209
710,121098.449
715,119059.322
720,116753.415
725,115659.29
730,113463.151
735,112533.44
740,109423.567
745,108307.621
750,106965.871
755,105990.385
760,104154.912
765,102440.142
770,100706.901
775,98961.904
780,98337.822
785,96241.995
790,95005.031
795,93121.026
800,92367.655
805,90857.391
810,89683.29
815,88750.058
820,86077.347
825,85397.995
830,84565.037
835,83239.7
840,82207.753
845,80379.657
850,77959.634
855,73545.96
860,76419.443
865,74337.862
870,75101.229
875,71043.828
880,74339.182
885,69910.247
890,71936.497
895,72022.084
900,66261.471
905,69090.997
910,68019.772
915,68698.517
920,65730.738
925,61904.587
930,65912.853
935,65278.677
940,63304.596
945,63028.467
950,62098.957
955,54436.179
960,60224.078
965,59578.265
970,59195.981
975,58465.321
980,57899.846
985,56993.981
990,55924.077
995,55530.96
1000,53853.294
1005,50948.394
1010,51312.263
1015,52397.466
1020,51968.387
1025,51560.278
1030,50839.188
1035,50107.104
1040,49565.832
1045,48695.35
1050,48000.055
1055,47568.478
1060,46949.567
1065,45909.009
1070,45174.11
1075,44935.547
1080,44241.694
1085,43493.094
1090,41077.342
1095,39921.406
1100,41522.264
1105,42022.038
1110,41630.863
1115,41067.22
1120,40643.969
1125,39925.877
1130,39185.591
1135,38900.996
1140,38437.953
1145,38117.521
1150,37943.434
1155,37453.422
1160,36751.662
1165,36045.985
1170,35906.379
1175,35458.763
1180,34798.258
1185,34452.602
1190,34319.291
1195,33926.237
1200,33395.656
1205,33152.678
1210,32763.591
1215,32558.485
1220,32288.222
1225,31851.216
1230,31471.357
1235,31161.9
1240,30842.352
1245,30523.612
1250,30146.322
1255,29707.846
1260,29355.237
1265,29071.929
1270,28737.442
1275,28089.216
1280,25935.003
1285,25738.319
1290,27198.099
1295,27211.785
1300,26995.722
1305,26755.157
1310,26444.835
1315,26063.507
1320,25854.539
1325,25627.859
1330,25340.921
1335,25094.715
1340,24844.274
1345,24605.693
1350,24321.452
1355,23995.079
1360,23752.306
1365,23537.787
1370,23189.245
1375,22925.635
1380,22759.469
1385,22592.381
1390,22360.956
1395,22092.319
1400,21865.206
1405,21663.081
1410,21424.281
1415,21203.714
1420,20972.149
1425,20645.599
1430,20489.027
1435,20401.221
1440,19966.452
1445,19729.528
1450,19629.667
1455,19415.095
1460,19294.716
1465,19119.185
1470,18893.759
1475,18623.663
1480,18460.67
1485,18224.94
1490,18114.455
1495,18050.301
1500,17744.371
1505,17485.671
1510,17417.059
1515,17360.382
1520,17157.134
1525,16968.486
1530,16820.431
1535,16640.381
1540,16433.544
1545,16257.742
1550,16124.932
1555,15927.872
1560,15823.666
1565,15654.309
1570,15378.178
1575,15175.98
1580,15059.77
1585,14739.414
1590,14573.41
1595,14705.12
1600,14588.083
1605,14354.921
1610,14092.254
1615,13870.687
1620,13926.678
1625,13976.842
1630,13727.776
1635,13428.077
1640,13114.368
1645,12884.634
1650,13001.258
1655,13150.892
1660,13072.826
1665,12923.083
1670,12607.102
1675,12266.963
1680,11930.191
1685,11687.613
1690,11882.919
1695,12103.149
1700,12023.306
1705,11884.374
1710,11772.027
1715,11649.844
1720,11460.741
1725,11201.231
1730,10689.862
1735,10254.854
1740,10394.759
1745,10623.703
1750,10674.264
1755,10664.656
1760,10581.466
1765,10481.454
1770,10390.09
1775,10298.728
1780,10199.138
1785,10099.513
1790,10007.77
1795,9908.125
1800,9762.175
1805,9566.284
1810,9141.577
1815,8767.901
1820,8843.403
1825,8999.138
1830,9058.386
1835,9075.405
1840,9005.733
1845,8914.634
1850,8826.702
1855,8731.639
1860,8608.451
1865,8436.32
1870,8017.121
1875,7656.055
1880,7831.335
1885,8060.022
1890,8052.346
1895,7990.712
1900,7974.279
1905,7960.104
1910,7888.835
1915,7806.186
1920,7725.228
1925,7635.734
1930,7520.077
1935,7351.023
1940,7017.249
1945,6717.468
1950,6883.177
1955,7084.793
1960,7114.154
1965,7077.574
1970,7017.627
1975,6952.296
1980,6901.463
1985,6850.181
1990,6790.07
1995,6727.989
2000,6672.105
2005,6617.591
2010,6563.614
2015,6506.578
2020,6439.07
2025,6368.644
2030,6298.931
2035,6237.239
2040,6196.505
2045,6160.811
2050,6104.532
2055,6043.933
2060,5980.205
2065,5917.08
2070,5869.213
2075,5822.599
2080,5773.377
2085,5722.509
2090,5664.798
2095,5610.066
2100,5565.241
2105,5523.002
2110,5468.823
2115,5414.913
2120,5365.275
2125,5317.851
2130,5274.079
2135,5230.827
2140,5186.852
2145,5138.067
2150,5076.693
2155,4978.089
2160,4758.475
2165,4595.629
2170,4650.202
2175,4778.116
2180,4786.271
2185,4776.302
2190,4757.815
2195,4729.508
2200,4683.104
2205,4633.262
2210,4598.123
2215,4565.408
2220,4532.982
2225,4499.791
2230,4463.32
2235,4425.965
2240,4389.249
2245,4350.26
2250,4305.731
2255,4262.499
2260,4230.039
2265,4201.13
2270,4170.497
2275,4137.972
2280,4101.189
2285,4064.433
2290,4031.441
2295,4000.964
2300,3973.854
2305,3946.228
2310,3912.708
2315,3879.627
2320,3849.995
2325,3820.671
2330,3788.571
2335,3756.517
2340,3728.935
2345,3702.036
2350,3672.532
2355,3643.214
2360,3615.47
2365,3586.54
2370,3553.838
2375,3521.085
2380,3492.673
2385,3466.92
2390,3443.376
2395,3419.49
2400,3392.116
2405,3364.01
2410,3335.714
2415,3308.687
2420,3284.636
2425,3260.693
2430,3234.243
2435,3207.878
2440,3184.695
2445,3161.162
2450,3132.255
2455,3103.993
2460,3084.251
2465,3065.217
2470,3040.931
2475,3014.952
2480,2987.536
2485,2961.72
2490,2940.984
2495,2922.251
2500,2904.586
2505,2886.287
2510,2865.569
2515,2843.28
2520,2820.014
2525,2797.511
2530,2777.911
2535,2759.121
2540,2738.452
2545,2716.671
2550,2694.585
2555,2671.013
2560,2644.944
2565,2621.755
2570,2608.508
2575,2597.416
2580,2577.939
2585,2556.349
2590,2540.427
2595,2524.991
2600,2503.305
2605,2475.487
2610,2440.712
2615,2389.947
2620,2315.347
2625,2259.545
2630,2281.369
2635,2334.207
2640,2348.539
2645,2340.891
2650,2329.867
2655,2313.321
2660,2292.254
2665,2266.417
2670,2237.082
2675,2213.673
2680,2210.558
2685,2214.807
2690,2209.011
2695,2197.763
2700,2184.694
2705,2170.443
2710,2155.963
2715,2141.364
2720,2126.784
2725,2111.878
2730,2096.553
2735,2080.332
2740,2064.081
2745,2040.136
2750,2002.275
2755,1968.461
2760,1959.277
2765,1963.302
2770,1964.155
2775,1962.456
2780,1955.09
2785,1944.085
2790,1932.79
2795,1920.691
2800,1907.88
2805,1894.981
2810,1882.367
2815,1869.81
2820,1857.09
2825,1844.544
2830,1832.486
2835,1820.211
2840,1806.484
2845,1792.19
2850,1779.025
2855,1763.3
2860,1743.726
2865,1716.792
2870,1680.532
2875,1658.667
2880,1665.427
2885,1682.749
2890,1684.171
2895,1676.466
2900,1668.123
2905,1658
2910,1646.864
2915,1635.47
2920,1624.205
2925,1613.69
2930,1604.197
2935,1594.953
2940,1584.602
2945,1574.027
2950,1564.234
2955,1554.621
2960,1544.934
2965,1535.114
2970,1525.206
2975,1515.35
2980,1505.811
2985,1496.204
2990,1486.063
2995,1476.033